<Bundle xmlns="http://hl7.org/fhir"><id value="761bb898-3497-4fdb-b384-71a5f586dc5b" /><meta><versionId value="1.2.0" /><lastUpdated value="2024-11-15T15:49:32.49852+00:00" /><profile value="https://fhir.nhs.uk/STU3/StructureDefinition/ITK-Message-Bundle-1" /></meta><identifier><system value="https://tools.ietf.org/html/rfc4122" /><value value="urn:uuid:b370ff25-8b75-4719-9dc6-54b39f352530" /></identifier><type value="message" /><timestamp value="2024-11-15T15:49:32.4985216+00:00" /><entry><fullUrl value="urn:uuid:32c221d1-50f2-44c1-a5c4-cfd76f39d39d" /><resource><MessageHeader><id value="32c221d1-50f2-44c1-a5c4-cfd76f39d39d" /><meta><lastUpdated value="2024-11-15T15:49:32.4985083+00:00" /><profile value="https://fhir.nhs.uk/STU3/StructureDefinition/ITK-MessageHeader-2" /></meta><extension url="InfAckRequested"><valueBoolean value="true" /></extension><extension url="RecipientType"><valueCodeableConcept><coding><system value="https://fhir.nhs.uk/STU3/CodeSystem/ITK-RecipientType-1" /><code value="FI" /><display value="For Information" /></coding></valueCodeableConcept></extension><eventCoding><system value="https://fhir.nhs.uk/STU3/CodeSystem/ITK-MessageEvent-2" /><code value="ITK006D" /><display value="ITK Outpatient Letter" /></eventCoding><sender><reference value="urn:uuid:1dc618e3-4677-401e-9634-86e24f4b1fd5" /></sender><source><endpointString value="urn:nhs-uk:addressing:ods:8K653" /></source></MessageHeader></resource></entry><entry><fullUrl value="urn:uuid:1dc618e3-4677-401e-9634-86e24f4b1fd5" /><resource><Practitioner><id value="1dc618e3-4677-401e-9634-86e24f4b1fd5" /><meta><lastUpdated value="2024-11-15T15:49:32.4984644+00:00" /><profile value="https://fhir.hl7.org.uk/STU3/StructureDefinition/CareConnect-Practitioner-1" /></meta><name><use value="official" /><family value="MOUSE" /><given value="Mickey" /><prefix value="Mr" /></name><telecom><system value="email" /><value value="Test@test.com" /></telecom></Practitioner></resource></entry><entry><fullUrl value="urn:uuid:14c7fc30-9aa3-4595-9dc4-ff632dfd81c9" /><resource><Organization><id value="14c7fc30-9aa3-4595-9dc4-ff632dfd81c9" /><meta><lastUpdated value="2024-11-15T15:49:32.4984998+00:00" /><profile value="https://fhir.hl7.org.uk/STU3/StructureDefinition/CareConnect-Organization-1" /></meta><name value="LungHealth" /><contact><telecom><system value="email" /><value value="Test@test.com" /></telecom></contact></Organization></resource></entry><entry><fullUrl value="03820c38-34ce-432a-8552-45928fbc20ad" /><resource><Bundle><id value="03820c38-34ce-432a-8552-45928fbc20ad" /><meta><lastUpdated value="2024-11-15T15:49:32.495071+00:00" /><profile value="https://fhir.nhs.uk/STU3/StructureDefinition/ITK-Document-Bundle-1" /></meta><identifier><system value="https://tools.ietf.org/html/rfc4122" /><value value="urn:uuid:19147ef4-9649-4e85-a145-d5c2b8d430e4" /></identifier><type value="document" /><timestamp value="2024-11-15T15:49:32.495159+00:00" /><entry><fullUrl value="urn:uuid:6e85746d-e8df-4729-baf6-bf982cd9466a" /><resource><Composition><id value="6e85746d-e8df-4729-baf6-bf982cd9466a" /><meta><lastUpdated value="2024-11-15T15:49:32.4954589+00:00" /><profile value="https://fhir.nhs.uk/STU3/StructureDefinition/CareConnect-ITK-EDIS-Composition-1" /></meta><identifier><system value="https://tools.ietf.org/html/rfc4122" /><value value="urn:uuid:d913c0d3-187e-44b0-ac50-85f1f07feecf" /></identifier><status value="final" /><type><coding><system value="http://snomed.info/sct" /><code value="185004005" /><display value="Medical report received" /></coding></type><subject><reference value="urn:uuid:c8618a1b-1884-47f9-a2ac-13afef0df8b3" /><display value="Medical" /></subject><date value="2024-11-15" /><author><reference value="urn:uuid:16b634db-0e20-446e-bac5-31e2be8bc337" /></author><title value="ECG Report" /><custodian><reference value="urn:uuid:0c7ee2d1-864c-4d24-bbf8-3d8305840abe" /></custodian><section><title value="ECG Report" /><code><coding><system value="http://snomed.info/sct" /><code value="185004005" /><display value="Medical report received" /></coding></code><text><status value="generated" /><div xmlns="http://www.w3.org/1999/xhtml"><table width="100%"><tbody><tr><th>Reason for admission</th><td>ECG: inferior ischaemia</td></tr><tr><th>Admission method</th><td>Accident and emergency or dental casualty department of the Health Care Provider</td></tr><tr><th>Source of admission</th><td>NHS other Hospital Provider - Ward for general Patients or the younger physically disabled or A and E department</td></tr><tr><th>Date/time of admission</th><td>12-Feb-2015 09:00</td></tr></tbody></table></div></text></section></Composition></resource></entry><entry><fullUrl value="urn:uuid:c8618a1b-1884-47f9-a2ac-13afef0df8b3" /><resource><Patient><id value="c8618a1b-1884-47f9-a2ac-13afef0df8b3" /><meta><versionId value="00001" /><profile value="https://fhir.nhs.uk/STU3/StructureDefinition/CareConnect-GPC-Patient-1" /></meta><identifier><use value="official" /><system value="https://fhir.nhs.uk/Id/nhs-number" /><value value="9990102783" /></identifier><identifier><system value="https://fhir.nhs.uk/Id/local-patient-identifier" /><value value="1" /></identifier><name><use value="official" /><family value="MOUSE" /><given value="Mickey" /><prefix value="Mr" /></name><telecom><system value="email" /><value value="Test@test.com" /></telecom><gender value="male" /><birthDate value="1974-02-12" /><address><line value="12 Mmmm" /><line value="Mm" /><postalCode value="SR4 6NB" /></address></Patient></resource></entry><entry><fullUrl value="urn:uuid:16b634db-0e20-446e-bac5-31e2be8bc337" /><resource><Practitioner><id value="16b634db-0e20-446e-bac5-31e2be8bc337" /><meta><lastUpdated value="2024-11-15T15:49:32.4954407+00:00" /><profile value="https://fhir.hl7.org.uk/STU3/StructureDefinition/CareConnect-Practitioner-1" /></meta><name><use value="official" /><family value="MOUSE" /><given value="Mickey" /><prefix value="Mr" /></name><telecom><system value="email" /><value value="Test@test.com" /></telecom></Practitioner></resource></entry><entry><fullUrl value="urn:uuid:0c7ee2d1-864c-4d24-bbf8-3d8305840abe" /><resource><Organization><id value="0c7ee2d1-864c-4d24-bbf8-3d8305840abe" /><meta><lastUpdated value="2024-11-15T15:49:32.4954521+00:00" /><profile value="https://fhir.hl7.org.uk/STU3/StructureDefinition/CareConnect-Organization-1" /></meta><name value="LungHealth" /><contact><telecom><system value="email" /><value value="Test@test.com" /></telecom></contact></Organization></resource></entry></Bundle></resource></entry></Bundle>